File: data_processing/materials/absorption_coefficient/Smausz2017_alpha_ellipsometry.csv
#DataThief G:\Shared drives\ARPA-E Project\Literature\Film Thickness\Smausz2017.png Thursday 30-May-2024 1:51:57 PM
# Smausz, T., Kondász, B., Gera, T. et al. Determination of UV–visible–NIR absorption coefficient of graphite bulk using direct and indirect methods. Appl. Phys. A 123, 633 (2017). https://doi.org/10.1007/s00339-017-1249-y
Wavelength (nm),alpha (1/um)
249.0641, 18.329
249.0641, 18.2903
249.0641, 18.2517
249.0641, 18.213
250.1985, 18.1743
250.1985, 18.1356
250.1985, 18.097
251.333, 18.0583
251.333, 18.0196
251.333, 17.9809
251.333, 17.9423
252.4674, 17.9036
252.4674, 17.8649
252.4674, 17.8263
252.4674, 17.7875
253.6018, 17.7489
253.6018, 17.7102
253.6018, 17.6716
253.6018, 17.6329
254.7362, 17.5941
254.7362, 17.5554
254.7362, 17.5169
254.7362, 17.4782
255.8707, 17.4395
255.8707, 17.4009
255.8707, 17.3622
255.8707, 17.3235
257.0051, 17.2848
257.0051, 17.2462
257.0051, 17.2075
258.1395, 17.1688
258.1395, 17.1301
258.1395, 17.0915
258.1395, 17.0528
258.1395, 17.0141
259.274, 16.9755
259.274, 16.9367
259.274, 16.8981
259.274, 16.8594
260.4083, 16.8208
260.4083, 16.7821
260.4083, 16.7433
260.4083, 16.7048
260.4083, 16.6661
260.4083, 16.6274
261.5428, 16.5887
261.5428, 16.5501
261.5428, 16.5114
261.5428, 16.4727
262.6773, 16.434
262.6773, 16.3954
262.6773, 16.3567
262.6773, 16.318
262.6773, 16.2793
262.6773, 16.2407
262.6773, 16.202
263.8117, 16.1633
264.9461, 16.1247
264.9461, 16.086
264.9461, 16.0473
264.9461, 16.0087
266.0805, 15.97
267.215, 15.9313
267.215, 15.8925
267.215, 15.854
266.0805, 15.8153
266.0805, 15.7766
266.0805, 15.738
266.0805, 15.6993
266.0805, 15.6606
267.215, 15.6219
268.3494, 15.5833
268.3494, 15.5446
268.3494, 15.5059
268.3494, 15.4672
268.3494, 15.4285
268.3494, 15.3899
268.3494, 15.3512
269.4838, 15.3126
269.4838, 15.2739
269.4838, 15.2352
269.4838, 15.1965
269.4838, 15.1579
270.6183, 15.1192
270.6183, 15.0805
270.6183, 15.0419
271.7527, 15.0032
271.7527, 14.9645
271.7527, 14.9258
271.7527, 14.8872
271.7527, 14.8485
271.7527, 14.8098
272.8871, 14.7711
272.8871, 14.7325
272.8871, 14.6938
272.8871, 14.6551
272.8871, 14.6165
274.0216, 14.5777
274.0216, 14.5391
274.0216, 14.5004
274.0216, 14.4618
274.0216, 14.4231
275.156, 14.3844
275.156, 14.3458
275.156, 14.3071
275.156, 14.2684
275.156, 14.2297
276.2904, 14.1911
276.2904, 14.1524
276.2904, 14.1137
276.2904, 14.0751
277.4248, 14.0364
277.4248, 13.9977
277.4248, 13.959
277.4248, 13.9203
277.4248, 13.8817
278.5593, 13.843
278.5593, 13.8043
278.5593, 13.7657
279.6937, 13.7269
279.6937, 13.6883
279.6937, 13.6497
279.6937, 13.611
279.6937, 13.5723
279.6937, 13.5335
280.8281, 13.495
280.8281, 13.4563
280.8281, 13.4176
280.8281, 13.379
281.9626, 13.3403
281.9626, 13.3016
281.9626, 13.2629
281.9626, 13.2243
281.9626, 13.1856
283.097, 13.1469
283.097, 13.1082
283.097, 13.0695
283.097, 13.0309
284.2314, 12.9922
284.2314, 12.9536
284.2314, 12.9149
284.2314, 12.8761
285.3659, 12.8375
285.3659, 12.7989
285.3659, 12.7602
285.3659, 12.7215
286.5003, 12.6827
286.5003, 12.6442
286.5003, 12.6055
286.5003, 12.5668
287.6347, 12.5282
287.6347, 12.4895
287.6347, 12.4508
287.6347, 12.4121
288.7691, 12.3735
288.7691, 12.3348
288.7691, 12.2961
289.9036, 12.2574
289.9036, 12.2187
289.9036, 12.1801
289.9036, 12.1414
291.038, 12.1028
291.038, 12.0641
291.038, 12.0254
292.1724, 11.9867
292.1724, 11.9481
292.1724, 11.9094
292.1724, 11.8707
293.3069, 11.8319
293.3069, 11.7934
293.3069, 11.7547
294.4413, 11.716
294.4413, 11.6774
294.4413, 11.6387
294.4413, 11.6
295.5756, 11.5613
295.5756, 11.5227
295.5756, 11.484
296.7102, 11.4453
296.7102, 11.4066
296.7102, 11.3679
297.8446, 11.3293
297.8446, 11.2906
297.8446, 11.252
298.979, 11.2133
298.979, 11.1746
298.979, 11.1359
300.1134, 11.0973
300.1134, 11.0586
300.1134, 11.0199
301.2479, 10.9811
301.2479, 10.9426
301.2479, 10.9039
302.3822, 10.8652
302.3822, 10.8265
303.5167, 10.7879
303.5167, 10.7492
303.5167, 10.7105
304.6512, 10.6718
304.6512, 10.6332
305.7856, 10.5945
305.7856, 10.5558
305.7856, 10.5171
306.92, 10.4785
306.92, 10.4398
308.0545, 10.4011
308.0545, 10.3625
308.0545, 10.3237
309.1889, 10.2851
309.1889, 10.2464
310.3233, 10.2078
310.3233, 10.1691
311.4577, 10.1304
311.4577, 10.0917
312.5922, 10.053
312.5922, 10.0144
313.7266, 9.9757
313.7266, 9.937
314.861, 9.8982
314.861, 9.8597
315.9955, 9.821
315.9955, 9.7823
317.1299, 9.7436
317.1299, 9.705
318.2643, 9.6663
319.3988, 9.6276
319.3988, 9.5889
320.5332, 9.5503
320.5332, 9.5116
321.6676, 9.4729
322.802, 9.4342
322.802, 9.3956
323.9365, 9.3569
325.0709, 9.3182
325.0709, 9.2795
326.2053, 9.2409
327.3397, 9.2022
327.3397, 9.1635
328.4742, 9.1248
329.6086, 9.0861
330.7431, 9.0475
330.7431, 9.0088
331.8775, 8.9701
333.0119, 8.9701
334.1463, 8.9701
335.2808, 8.9314
335.2808, 8.8927
336.4152, 8.854
336.4152, 8.8154
336.4152, 8.7767
337.5495, 8.7767
338.6841, 8.7767
339.8185, 8.738
340.9529, 8.6993
342.0874, 8.6606
343.2218, 8.6219
344.3562, 8.5833
345.4906, 8.5833
346.6251, 8.5446
347.7595, 8.5059
348.8939, 8.4672
348.8939, 8.4285
348.8939, 8.3899
350.0284, 8.3512
351.1628, 8.3512
352.2972, 8.3125
353.4317, 8.3125
354.5661, 8.2738
355.7005, 8.2352
355.7005, 8.1965
356.8349, 8.1965
357.9694, 8.1965
359.1038, 8.1965
360.2382, 8.1578
361.3727, 8.1191
362.507, 8.0804
363.6415, 8.0417
364.776, 8.003
365.9104, 8.003
365.9104, 7.9644
367.0448, 7.9644
368.1792, 7.9257
369.3136, 7.887
370.4481, 7.887
370.4481, 7.8483
371.5825, 7.8483
372.717, 7.8483
373.8514, 7.8096
374.9858, 7.7709
376.1202, 7.7709
377.2547, 7.7322
378.3891, 7.6936
379.5234, 7.6935
380.658, 7.6549
381.7924, 7.6162
382.9268, 7.6162
382.9268, 7.5775
384.0613, 7.5775
385.1957, 7.5388
386.3301, 7.5388
386.3301, 7.5001
387.4645, 7.5001
388.599, 7.5001
389.7334, 7.4614
390.8678, 7.4227
392.0023, 7.4227
393.1367, 7.3841
394.2711, 7.384
395.4056, 7.3454
396.54, 7.3454
397.6743, 7.3067
398.8088, 7.3067
399.9433, 7.268
401.0777, 7.268
402.2121, 7.2293
403.3466, 7.1905
404.4809, 7.1905
405.6154, 7.1519
406.7499, 7.1132
407.8843, 7.1132
409.0187, 7.0745
410.1531, 7.0745
411.2876, 7.0359
412.422, 7.0358
413.5564, 7.0358
414.6909, 6.9971
415.8253, 6.9585
416.9597, 6.9585
418.0942, 6.9198
419.2286, 6.9198
420.363, 6.8811
421.4974, 6.8811
422.6319, 6.8424
423.7663, 6.8424
424.9007, 6.8037
426.0352, 6.8037
427.1696, 6.765
428.304, 6.765
429.4385, 6.7263
430.5729, 6.7263
431.7073, 6.7263
432.8417, 6.6876
433.9762, 6.6489
435.1106, 6.6489
436.245, 6.6101
437.3795, 6.6101
438.5139, 6.6101
439.6482, 6.5715
440.7828, 6.5715
441.9172, 6.5329
443.0516, 6.5328
444.186, 6.4942
445.3205, 6.4941
446.4549, 6.4941
447.5893, 6.4555
448.7238, 6.4554
449.8582, 6.4168
450.9926, 6.4168
452.1271, 6.4167
453.2615, 6.378
454.3959, 6.378
455.5303, 6.3394
456.6648, 6.3394
457.7992, 6.3007
458.9336, 6.3007
460.0681, 6.3007
461.2025, 6.3006
462.3369, 6.262
463.4714, 6.262
464.6058, 6.2233
465.7402, 6.2233
466.8746, 6.2233
468.0091, 6.1846
469.1435, 6.1846
470.2779, 6.1459
471.4123, 6.1459
472.5468, 6.1459
473.6812, 6.1072
474.8157, 6.1072
475.9501, 6.1072
477.0845, 6.0685
478.2189, 6.0685
479.3534, 6.0685
480.4878, 6.0298
481.6221, 6.0298
482.7567, 6.0297
483.8911, 5.991
485.0255, 5.991
486.16, 5.991
487.2944, 5.9524
488.4288, 5.9524
489.5632, 5.9523
490.6977, 5.9523
491.8321, 5.9137
492.9665, 5.9136
494.101, 5.9136
495.2354, 5.8749
496.3698, 5.8749
497.5043, 5.8749
498.6387, 5.8362
499.7731, 5.8362
500.9075, 5.8362
502.042, 5.8362
503.1764, 5.7974
504.3108, 5.7974
505.4453, 5.7974
506.5796, 5.7588
507.7141, 5.7588
508.8486, 5.7588
509.983, 5.7588
511.1174, 5.7201
512.2518, 5.7201
513.3862, 5.7201
514.5207, 5.7201
515.6551, 5.6814
516.7896, 5.6814
517.924, 5.6814
519.0584, 5.6814
520.1929, 5.6427
521.3273, 5.6427
522.4617, 5.6427
523.596, 5.6427
524.7306, 5.604
525.865, 5.604
526.9994, 5.604
528.1339, 5.6038
529.2683, 5.5653
530.4027, 5.5653
531.5372, 5.5652
532.6716, 5.5652
533.806, 5.5265
534.9404, 5.5265
536.0749, 5.5265
537.2093, 5.5265
538.3437, 5.5265
539.4782, 5.5265
540.6126, 5.4878
541.7469, 5.4878
542.8815, 5.4878
544.0159, 5.4878
545.1503, 5.4491
546.2847, 5.4491
547.4192, 5.4491
548.5535, 5.4491
549.688, 5.4491
550.8225, 5.4104
551.9569, 5.4104
553.0913, 5.4104
554.2258, 5.4102
555.3602, 5.4102
556.4946, 5.3717
557.629, 5.3716
558.7635, 5.3716
559.8979, 5.3716
561.0323, 5.3329
562.1668, 5.3329
563.3012, 5.3329
564.4356, 5.3329
565.5701, 5.3329
566.7045, 5.3329
567.8389, 5.2942
568.9733, 5.2942
570.1078, 5.2942
571.2422, 5.2942
572.3766, 5.2942
573.511, 5.2941
574.6455, 5.2555
575.7799, 5.2555
576.9144, 5.2554
578.0488, 5.2554
579.1832, 5.2554
580.3176, 5.2554
581.4521, 5.2167
582.5865, 5.2167
583.7208, 5.2167
584.8554, 5.2167
585.9898, 5.2167
587.1242, 5.2167
588.2587, 5.178
589.3931, 5.178
590.5274, 5.178
591.6619, 5.178
592.7964, 5.178
593.9308, 5.1779
595.0652, 5.1779
596.1997, 5.1392
597.3341, 5.1392
598.4685, 5.1392
599.6029, 5.1392
600.7374, 5.1392
601.8718, 5.1005
603.0062, 5.1005
604.1407, 5.1005
605.2751, 5.1005
606.4095, 5.1005
607.544, 5.1005
608.6784, 5.1005
609.8128, 5.1004
610.9472, 5.0618
612.0817, 5.0618
613.2161, 5.0617
614.3505, 5.0617
615.4849, 5.0617
616.6194, 5.0617
617.7538, 5.023
618.8883, 5.023
620.0227, 5.023
621.1571, 5.023
622.2915, 5.023
623.426, 5.023
624.5604, 5.023
625.6947, 4.9843
626.8293, 4.9843
627.9637, 4.9843
629.0981, 4.9843
630.2326, 4.9842
631.367, 4.9842
632.5013, 4.9842
633.6358, 4.9842
634.7703, 4.9455
635.9047, 4.9455
637.0391, 4.9455
638.1736, 4.9455
639.308, 4.9455
640.4424, 4.9455
641.5769, 4.9455
642.7113, 4.9454
643.8457, 4.9068
644.9801, 4.9068
646.1146, 4.9066
647.249, 4.9066
648.3834, 4.9066
649.5179, 4.9066
650.6522, 4.9066
651.7867, 4.8679
652.9212, 4.8679
654.0556, 4.8679
655.19, 4.8679
656.3244, 4.8679
657.4588, 4.8679
658.5933, 4.8679
659.7277, 4.8679
660.8622, 4.8293
661.9966, 4.8293
663.131, 4.8292
664.2655, 4.8292
665.3999, 4.8292
666.5343, 4.8292
667.6686, 4.8292
668.8032, 4.8292
669.9376, 4.8292
671.072, 4.7905
672.2065, 4.7905
673.3409, 4.7905
674.4753, 4.7905
675.6098, 4.7905
676.7442, 4.7904
677.8786, 4.7904
679.013, 4.7904
680.1475, 4.7517
681.2819, 4.7517
682.4163, 4.7517
683.5508, 4.7517
684.6852, 4.7517
685.8195, 4.7517
686.9541, 4.7517
688.0885, 4.7517
689.2229, 4.7517
690.3573, 4.713
691.4918, 4.713
692.6261, 4.7128
693.7606, 4.7128
694.8951, 4.7128
696.0295, 4.7128
697.1639, 4.7128
698.2984, 4.7128
699.4328, 4.7128
700.5672, 4.6742
701.7016, 4.6742
702.8361, 4.6742
703.9705, 4.6742
705.1049, 4.6742
706.2394, 4.6741
707.3738, 4.6741
708.5082, 4.6741
709.6427, 4.6741
710.7771, 4.6741
711.9115, 4.6354
713.0459, 4.6354
714.1804, 4.6354
715.3148, 4.6354
716.4492, 4.6354
717.5836, 4.6354
718.7181, 4.6354
719.8525, 4.6353
720.987, 4.5967
722.1214, 4.5967
723.2558, 4.5966
724.3902, 4.5966
725.5247, 4.5966
726.6591, 4.5966
727.7934, 4.5966
728.928, 4.5966
730.0624, 4.5966
731.1968, 4.5966
732.3313, 4.5966
733.4657, 4.5965
734.6, 4.5579
735.7345, 4.5579
736.869, 4.5577
738.0034, 4.5577
739.1378, 4.5577
740.2723, 4.5577
741.4067, 4.5577
742.5411, 4.5577
743.6756, 4.5191
744.81, 4.5191
745.9444, 4.5191
747.0788, 4.5191
748.2133, 4.5191
749.3477, 4.5191
750.4821, 4.519
751.6166, 4.519
752.751, 4.519
753.8854, 4.519
755.0199, 4.519
756.1543, 4.519
757.2887, 4.4803
758.4231, 4.4803
759.5575, 4.4803
760.692, 4.4803
761.8264, 4.4803
762.9609, 4.4802
764.0953, 4.4802
765.2297, 4.4802
766.3642, 4.4802
767.4986, 4.4802
768.633, 4.4415
769.7673, 4.4415
770.9019, 4.4415
772.0363, 4.4415
773.1707, 4.4415
774.3052, 4.4415
775.4396, 4.4415
776.5739, 4.4414
777.7085, 4.4414
778.8429, 4.4414
779.9773, 4.4414
781.1117, 4.4027
782.2462, 4.4027
783.3806, 4.4027
784.515, 4.4027
785.6495, 4.4027
786.7839, 4.4027
787.9183, 4.4027
789.0528, 4.4027
790.1872, 4.4026
791.3216, 4.4026
792.456, 4.4026
793.5905, 4.4026
794.7248, 4.3639
795.8593, 4.3639
796.9938, 4.3639
798.1282, 4.3639
799.2626, 4.3639
800.3971, 4.3639
801.5314, 4.3639
802.6659, 4.3639
803.8003, 4.3638
804.9348, 4.3638
806.0692, 4.3638
807.2036, 4.3638
808.3381, 4.3638
809.4725, 4.3638
810.6069, 4.3251
811.7412, 4.3251
812.8758, 4.3251
814.0102, 4.3251
815.1446, 4.3251
816.2791, 4.3251
817.4135, 4.325
818.5479, 4.325
819.6824, 4.325
820.8168, 4.325
821.9512, 4.2863
823.0856, 4.2863
824.2201, 4.2863
825.3545, 4.2863
826.4889, 4.2863
827.6234, 4.2863
828.7578, 4.2863
829.8921, 4.2863
831.0267, 4.2862
832.1611, 4.2862
833.2955, 4.2862
834.4299, 4.2862
835.5644, 4.2862
836.6987, 4.2475
837.8332, 4.2475
838.9677, 4.2475
840.1021, 4.2475
841.2365, 4.2475
842.371, 4.2475
843.5053, 4.2475
844.6398, 4.2474
845.7742, 4.2474
846.9087, 4.2474
848.0431, 4.2474
849.1775, 4.2474
850.312, 4.2474
851.4464, 4.2086
852.5808, 4.2086
853.7153, 4.2086
854.8497, 4.2086
855.9841, 4.2086
857.1185, 4.2086
858.253, 4.2086
859.3874, 4.2086
860.5218, 4.2086
861.6562, 4.2086
862.7907, 4.2086
863.9251, 4.2086
865.0596, 4.2086
866.194, 4.1699
867.3284, 4.1699
868.4628, 4.1699
869.5973, 4.1699
870.7317, 4.1698
871.866, 4.1698
873.0006, 4.1698
874.135, 4.1698
875.2694, 4.1698
876.4039, 4.1698
877.5383, 4.1698
878.6726, 4.1698
879.8071, 4.1698
880.9416, 4.1698
882.076, 4.1697
883.2104, 4.1697
884.3449, 4.131
885.4793, 4.131
886.6137, 4.131
887.7482, 4.131
888.8826, 4.131
890.017, 4.131
891.1514, 4.131
892.2859, 4.131
893.4203, 4.131
894.5547, 4.1309
895.6892, 4.1309
896.8235, 4.0923
897.958, 4.0922
899.0925, 4.0922
900.2269, 4.0922
901.3613, 4.0922
902.4957, 4.0922
903.6301, 4.0922
904.7646, 4.0922
905.899, 4.0922
907.0335, 4.0922
908.1679, 4.0921
909.3023, 4.0921
910.4368, 4.0921
911.5712, 4.0921
912.7056, 4.0921
913.8399, 4.0921
914.9745, 4.0534
916.1089, 4.0534
917.2433, 4.0534
918.3778, 4.0534
919.5122, 4.0534
920.6465, 4.0534
921.7811, 4.0533
922.9155, 4.0533
924.0499, 4.0533
925.1843, 4.0533
926.3188, 4.0533
927.4532, 4.0533
928.5876, 4.0533
929.7221, 4.0533
930.8565, 4.0533
931.9909, 4.0532
933.1254, 4.0146
934.2598, 4.0146
935.3942, 4.0145
936.5286, 4.0145
937.6631, 4.0145
938.7974, 4.0145
939.9319, 4.0145
941.0664, 4.0145
942.2008, 4.0145
943.3352, 4.0145
944.4697, 4.0145
945.604, 4.0144
946.7385, 4.0144
947.8729, 4.0144
949.0074, 4.0144
950.1418, 3.9757
951.2762, 3.9757
952.4107, 3.9757
953.5451, 3.9757
954.6795, 3.9757
955.814, 3.9757
956.9484, 3.9757
958.0828, 3.9757
959.2172, 3.9756
960.3517, 3.9756
961.4861, 3.9756
962.6205, 3.9756
963.755, 3.9756
964.8894, 3.9756
966.0238, 3.9756
967.1583, 3.9756
968.2927, 3.9756
969.4271, 3.9369
970.5615, 3.9369
971.696, 3.9369
972.8304, 3.9367
973.9647, 3.9367
975.0993, 3.9367
976.2337, 3.9367
977.3681, 3.9367
978.5026, 3.9367
979.637, 3.9367
980.7713, 3.9367
981.9058, 3.9367
983.0403, 3.9367
984.1747, 3.9367
985.3091, 3.8981
986.4436, 3.898