File: data_processing/2024/manuscript3/data/EDX/20241122/hp_b_rod/Base(3).MAP.EDS/Extracted Spectrum.emsa
#FORMAT      : EMSA/MAS Spectral Data File
#VERSION     : 1.0
#TITLE       : Extracted Spectrum
#DATE        : 22-NOV-2024
#TIME        : 16:18: 0
#OWNER       :
#NPOINTS     : 1024
#NCOLUMNS    : 1
#XUNITS      : keV
#YUNITS      : Intensity
#DATATYPE    : XY
#XPERCHAN    : 0.01
#OFFSET      : 0.000000000
#CHOFFSET    : 0.000000
#SIGNALTYPE  : EDS
#XLABEL      : X-Ray Energy
#YLABEL      : X-Ray Intensity
#BEAMKV   -kV: 7.0
#EMISSION -uA: 0.0000
#PROBECUR -nA: 0.8000
#BEAMDIAM -nm: 0.0
#MAGCAM      : 600.0
#OPERMODE    : IMAG
#XTILTSTGE-dg: 0.000
#YTILTSTGE-dg: 0.000
#XPOSITION   : 0.000
#YPOSITION   : 0.000
#ZPOSITION   : 0.000
#ELEVANGLE-dg: 47.92
#AZIMANGLE-dg: 0.00
#SOLIDANGL-sR: 0.0053
#LIVETIME  -s: 47.211
#REALTIME  -s: 53.760
#THCWIND  -cm: 3.00E-05
#TAUWIND  -cm: 2.00E-06
#TDEADLYR -cm: 1.00E-06
#EDSDET      : SIUTW
#COMMENT     : The following parameters are defined by Thermo Fisher Scientific
##INSTRUMENT : NSS
##DETNAME    : UltraDry
##CONTAM     : 0.00E+00
##CONTAMTYPE : NONE
##WORKDIST   : 21.68
##STAGEROT   : 0.000
##SLIDEPOS   : 35.000
##CRYSTMATL  : Si-Drift
##CRYSTAREA  : 10.000
##CRYSTTHICK : 0.450
##WINTYPE    : NORVAR
##CONTMATL   : SDD_LELMT
##WINDCOAT   : ALUMINUM
##WINDTHICK  : 0.030
##DEADTIME   : 6.549
##TIMECNSTNT : 6400
##EDSBOARDREV: 2
##ZEROWIDTH  : 20.600
##DETECTS    : 0
##CONVERTS   : 0
##STORES     : 0
##ESCPKSREM  : 0
##ZEROPKSREM : 0
##SUMPKSREM  : 0
##ZEROCUTOFF : 0.000
##DETSUBTYPE : 3
##EXPONENT   : 0.000
##LOWEVADJ   : 0.000
##BEAMX      : -1.000
##BEAMY      : -1.000
##CHARGE     : 0.00E+00
##QUANT_DATE : (null)
##QUANT_CHI  : 0.000
##FITTYPE    : 0
##MATRIXCORR : 0
#SPECTRUM    :
0.0000,     0.0,
0.0100,     0.0,
0.0200,     0.0,
0.0300,     0.0,
0.0400,     0.0,
0.0500,     0.0,
0.0600,     0.0,
0.0700,     0.0,
0.0800,     0.0,
0.0900,     0.0,
0.1000,   523.0,
0.1100,   707.0,
0.1200,  1062.0,
0.1300,  1968.0,
0.1400,  5130.0,
0.1500, 15105.0,
0.1600, 35667.0,
0.1700, 60407.0,
0.1800, 69883.0,
0.1900, 52431.0,
0.2000, 24696.0,
0.2100,  7914.0,
0.2200,  2004.0,
0.2300,   828.0,
0.2400,  1040.0,
0.2500,  2052.0,
0.2600,  3241.0,
0.2700,  3820.0,
0.2800,  3372.0,
0.2900,  2264.0,
0.3000,  1045.0,
0.3100,   431.0,
0.3200,   210.0,
0.3300,   231.0,
0.3400,   263.0,
0.3500,   344.0,
0.3600,   329.0,
0.3700,   342.0,
0.3800,   261.0,
0.3900,   305.0,
0.4000,   255.0,
0.4100,   262.0,
0.4200,   242.0,
0.4300,   240.0,
0.4400,   309.0,
0.4500,   304.0,
0.4600,   347.0,
0.4700,   359.0,
0.4800,   437.0,
0.4900,   512.0,
0.5000,   696.0,
0.5100,   876.0,
0.5200,   912.0,
0.5300,   811.0,
0.5400,   638.0,
0.5500,   474.0,
0.5600,   352.0,
0.5700,   301.0,
0.5800,   338.0,
0.5900,   331.0,
0.6000,   321.0,
0.6100,   341.0,
0.6200,   370.0,
0.6300,   382.0,
0.6400,   418.0,
0.6500,   378.0,
0.6600,   440.0,
0.6700,   420.0,
0.6800,   410.0,
0.6900,   422.0,
0.7000,   419.0,
0.7100,   472.0,
0.7200,   443.0,
0.7300,   435.0,
0.7400,   464.0,
0.7500,   438.0,
0.7600,   483.0,
0.7700,   440.0,
0.7800,   482.0,
0.7900,   457.0,
0.8000,   490.0,
0.8100,   489.0,
0.8200,   512.0,
0.8300,   501.0,
0.8400,   476.0,
0.8500,   510.0,
0.8600,   491.0,
0.8700,   541.0,
0.8800,   512.0,
0.8900,   511.0,
0.9000,   507.0,
0.9100,   512.0,
0.9200,   485.0,
0.9300,   499.0,
0.9400,   483.0,
0.9500,   508.0,
0.9600,   544.0,
0.9700,   512.0,
0.9800,   557.0,
0.9900,   464.0,
1.0000,   494.0,
1.0100,   526.0,
1.0200,   500.0,
1.0300,   534.0,
1.0400,   480.0,
1.0500,   538.0,
1.0600,   554.0,
1.0700,   497.0,
1.0800,   516.0,
1.0900,   488.0,
1.1000,   490.0,
1.1100,   489.0,
1.1200,   466.0,
1.1300,   507.0,
1.1400,   490.0,
1.1500,   458.0,
1.1600,   483.0,
1.1700,   450.0,
1.1800,   526.0,
1.1900,   481.0,
1.2000,   399.0,
1.2100,   441.0,
1.2200,   410.0,
1.2300,   429.0,
1.2400,   462.0,
1.2500,   427.0,
1.2600,   453.0,
1.2700,   444.0,
1.2800,   423.0,
1.2900,   446.0,
1.3000,   410.0,
1.3100,   425.0,
1.3200,   404.0,
1.3300,   394.0,
1.3400,   384.0,
1.3500,   391.0,
1.3600,   433.0,
1.3700,   381.0,
1.3800,   426.0,
1.3900,   384.0,
1.4000,   363.0,
1.4100,   366.0,
1.4200,   380.0,
1.4300,   388.0,
1.4400,   375.0,
1.4500,   451.0,
1.4600,   473.0,
1.4700,   464.0,
1.4800,   456.0,
1.4900,   481.0,
1.5000,   421.0,
1.5100,   433.0,
1.5200,   413.0,
1.5300,   405.0,
1.5400,   388.0,
1.5500,   325.0,
1.5600,   335.0,
1.5700,   352.0,
1.5800,   283.0,
1.5900,   310.0,
1.6000,   293.0,
1.6100,   308.0,
1.6200,   279.0,
1.6300,   298.0,
1.6400,   306.0,
1.6500,   299.0,
1.6600,   300.0,
1.6700,   270.0,
1.6800,   298.0,
1.6900,   292.0,
1.7000,   292.0,
1.7100,   300.0,
1.7200,   289.0,
1.7300,   318.0,
1.7400,   312.0,
1.7500,   303.0,
1.7600,   278.0,
1.7700,   300.0,
1.7800,   260.0,
1.7900,   304.0,
1.8000,   260.0,
1.8100,   269.0,
1.8200,   240.0,
1.8300,   244.0,
1.8400,   247.0,
1.8500,   235.0,
1.8600,   243.0,
1.8700,   225.0,
1.8800,   223.0,
1.8900,   228.0,
1.9000,   200.0,
1.9100,   243.0,
1.9200,   189.0,
1.9300,   201.0,
1.9400,   227.0,
1.9500,   216.0,
1.9600,   216.0,
1.9700,   191.0,
1.9800,   219.0,
1.9900,   213.0,
2.0000,   210.0,
2.0100,   203.0,
2.0200,   180.0,
2.0300,   186.0,
2.0400,   199.0,
2.0500,   184.0,
2.0600,   205.0,
2.0700,   205.0,
2.0800,   212.0,
2.0900,   195.0,
2.1000,   195.0,
2.1100,   176.0,
2.1200,   179.0,
2.1300,   168.0,
2.1400,   169.0,
2.1500,   197.0,
2.1600,   181.0,
2.1700,   154.0,
2.1800,   187.0,
2.1900,   188.0,
2.2000,   170.0,
2.2100,   183.0,
2.2200,   180.0,
2.2300,   192.0,
2.2400,   181.0,
2.2500,   170.0,
2.2600,   150.0,
2.2700,   182.0,
2.2800,   163.0,
2.2900,   161.0,
2.3000,   155.0,
2.3100,   146.0,
2.3200,   168.0,
2.3300,   189.0,
2.3400,   165.0,
2.3500,   145.0,
2.3600,   151.0,
2.3700,   162.0,
2.3800,   152.0,
2.3900,   129.0,
2.4000,   144.0,
2.4100,   155.0,
2.4200,   155.0,
2.4300,   133.0,
2.4400,   150.0,
2.4500,   137.0,
2.4600,   148.0,
2.4700,   125.0,
2.4800,   156.0,
2.4900,   144.0,
2.5000,   116.0,
2.5100,   129.0,
2.5200,   132.0,
2.5300,   146.0,
2.5400,   125.0,
2.5500,   126.0,
2.5600,   125.0,
2.5700,   154.0,
2.5800,   127.0,
2.5900,   140.0,
2.6000,   171.0,
2.6100,   139.0,
2.6200,   141.0,
2.6300,   150.0,
2.6400,   136.0,
2.6500,   131.0,
2.6600,   124.0,
2.6700,   131.0,
2.6800,   128.0,
2.6900,   110.0,
2.7000,   116.0,
2.7100,   119.0,
2.7200,   123.0,
2.7300,   109.0,
2.7400,   111.0,
2.7500,   113.0,
2.7600,   122.0,
2.7700,   107.0,
2.7800,   117.0,
2.7900,   107.0,
2.8000,    92.0,
2.8100,   119.0,
2.8200,    98.0,
2.8300,   116.0,
2.8400,   115.0,
2.8500,    92.0,
2.8600,   129.0,
2.8700,    79.0,
2.8800,   106.0,
2.8900,    95.0,
2.9000,   110.0,
2.9100,    95.0,
2.9200,    80.0,
2.9300,    94.0,
2.9400,    89.0,
2.9500,    85.0,
2.9600,    98.0,
2.9700,    94.0,
2.9800,    85.0,
2.9900,   115.0,
3.0000,    99.0,
3.0100,    89.0,
3.0200,    84.0,
3.0300,    65.0,
3.0400,    98.0,
3.0500,    85.0,
3.0600,    85.0,
3.0700,    83.0,
3.0800,   100.0,
3.0900,    84.0,
3.1000,    75.0,
3.1100,    65.0,
3.1200,    88.0,
3.1300,    99.0,
3.1400,    73.0,
3.1500,    93.0,
3.1600,    74.0,
3.1700,    75.0,
3.1800,    85.0,
3.1900,    74.0,
3.2000,    79.0,
3.2100,    82.0,
3.2200,    70.0,
3.2300,    87.0,
3.2400,    54.0,
3.2500,    73.0,
3.2600,    72.0,
3.2700,    73.0,
3.2800,    82.0,
3.2900,    68.0,
3.3000,    88.0,
3.3100,    73.0,
3.3200,    56.0,
3.3300,    74.0,
3.3400,    80.0,
3.3500,    72.0,
3.3600,    82.0,
3.3700,    74.0,
3.3800,    69.0,
3.3900,    56.0,
3.4000,    68.0,
3.4100,    70.0,
3.4200,    59.0,
3.4300,    71.0,
3.4400,    69.0,
3.4500,    82.0,
3.4600,    63.0,
3.4700,    63.0,
3.4800,    61.0,
3.4900,    49.0,
3.5000,    61.0,
3.5100,    51.0,
3.5200,    70.0,
3.5300,    56.0,
3.5400,    69.0,
3.5500,    69.0,
3.5600,    56.0,
3.5700,    57.0,
3.5800,    69.0,
3.5900,    66.0,
3.6000,    65.0,
3.6100,    63.0,
3.6200,    67.0,
3.6300,    61.0,
3.6400,    66.0,
3.6500,    59.0,
3.6600,    65.0,
3.6700,    67.0,
3.6800,    71.0,
3.6900,    58.0,
3.7000,    64.0,
3.7100,    77.0,
3.7200,    60.0,
3.7300,    55.0,
3.7400,    49.0,
3.7500,    47.0,
3.7600,    39.0,
3.7700,    57.0,
3.7800,    48.0,
3.7900,    53.0,
3.8000,    47.0,
3.8100,    48.0,
3.8200,    52.0,
3.8300,    49.0,
3.8400,    60.0,
3.8500,    35.0,
3.8600,    38.0,
3.8700,    53.0,
3.8800,    54.0,
3.8900,    43.0,
3.9000,    42.0,
3.9100,    46.0,
3.9200,    39.0,
3.9300,    38.0,
3.9400,    39.0,
3.9500,    39.0,
3.9600,    53.0,
3.9700,    32.0,
3.9800,    47.0,
3.9900,    52.0,
4.0000,    51.0,
4.0100,    48.0,
4.0200,    36.0,
4.0300,    48.0,
4.0400,    50.0,
4.0500,    43.0,
4.0600,    40.0,
4.0700,    35.0,
4.0800,    33.0,
4.0900,    39.0,
4.1000,    26.0,
4.1100,    34.0,
4.1200,    40.0,
4.1300,    46.0,
4.1400,    38.0,
4.1500,    34.0,
4.1600,    40.0,
4.1700,    36.0,
4.1800,    37.0,
4.1900,    32.0,
4.2000,    35.0,
4.2100,    37.0,
4.2200,    41.0,
4.2300,    24.0,
4.2400,    25.0,
4.2500,    28.0,
4.2600,    25.0,
4.2700,    33.0,
4.2800,    29.0,
4.2900,    29.0,
4.3000,    36.0,
4.3100,    25.0,
4.3200,    36.0,
4.3300,    34.0,
4.3400,    30.0,
4.3500,    34.0,
4.3600,    23.0,
4.3700,    33.0,
4.3800,    31.0,
4.3900,    27.0,
4.4000,    30.0,
4.4100,    34.0,
4.4200,    28.0,
4.4300,    23.0,
4.4400,    29.0,
4.4500,    34.0,
4.4600,    24.0,
4.4700,    23.0,
4.4800,    28.0,
4.4900,    34.0,
4.5000,    26.0,
4.5100,    33.0,
4.5200,    31.0,
4.5300,    30.0,
4.5400,    24.0,
4.5500,    29.0,
4.5600,    23.0,
4.5700,    28.0,
4.5800,    26.0,
4.5900,    28.0,
4.6000,    26.0,
4.6100,    22.0,
4.6200,    23.0,
4.6300,    26.0,
4.6400,    17.0,
4.6500,    30.0,
4.6600,    23.0,
4.6700,    18.0,
4.6800,    19.0,
4.6900,    21.0,
4.7000,    24.0,
4.7100,    24.0,
4.7200,    18.0,
4.7300,    28.0,
4.7400,    30.0,
4.7500,    25.0,
4.7600,    30.0,
4.7700,    18.0,
4.7800,    21.0,
4.7900,    27.0,
4.8000,    18.0,
4.8100,    21.0,
4.8200,    18.0,
4.8300,    16.0,
4.8400,    15.0,
4.8500,    19.0,
4.8600,    24.0,
4.8700,    18.0,
4.8800,    18.0,
4.8900,    19.0,
4.9000,    12.0,
4.9100,    17.0,
4.9200,    17.0,
4.9300,    17.0,
4.9400,    14.0,
4.9500,    20.0,
4.9600,    17.0,
4.9700,    15.0,
4.9800,    16.0,
4.9900,    17.0,
5.0000,    18.0,
5.0100,    14.0,
5.0200,    18.0,
5.0300,    22.0,
5.0400,    15.0,
5.0500,    14.0,
5.0600,    19.0,
5.0700,    19.0,
5.0800,    17.0,
5.0900,    21.0,
5.1000,    13.0,
5.1100,    16.0,
5.1200,    18.0,
5.1300,    13.0,
5.1400,    11.0,
5.1500,    13.0,
5.1600,    14.0,
5.1700,    14.0,
5.1800,    11.0,
5.1900,    14.0,
5.2000,    12.0,
5.2100,    11.0,
5.2200,    19.0,
5.2300,    19.0,
5.2400,    10.0,
5.2500,    16.0,
5.2600,     7.0,
5.2700,    12.0,
5.2800,    11.0,
5.2900,     9.0,
5.3000,     9.0,
5.3100,     9.0,
5.3200,    17.0,
5.3300,    20.0,
5.3400,    12.0,
5.3500,    11.0,
5.3600,    15.0,
5.3700,    11.0,
5.3800,    14.0,
5.3900,     7.0,
5.4000,    10.0,
5.4100,    11.0,
5.4200,     7.0,
5.4300,    12.0,
5.4400,    15.0,
5.4500,    10.0,
5.4600,     7.0,
5.4700,     8.0,
5.4800,    11.0,
5.4900,     7.0,
5.5000,     7.0,
5.5100,    15.0,
5.5200,    16.0,
5.5300,     9.0,
5.5400,     6.0,
5.5500,    11.0,
5.5600,    10.0,
5.5700,    11.0,
5.5800,     9.0,
5.5900,    10.0,
5.6000,     5.0,
5.6100,     9.0,
5.6200,     4.0,
5.6300,     8.0,
5.6400,     8.0,
5.6500,    10.0,
5.6600,     8.0,
5.6700,     5.0,
5.6800,     8.0,
5.6900,     8.0,
5.7000,     8.0,
5.7100,     8.0,
5.7200,     8.0,
5.7300,     3.0,
5.7400,    12.0,
5.7500,     9.0,
5.7600,     9.0,
5.7700,     6.0,
5.7800,     6.0,
5.7900,    10.0,
5.8000,     7.0,
5.8100,     5.0,
5.8200,     5.0,
5.8300,     5.0,
5.8400,     6.0,
5.8500,     3.0,
5.8600,     4.0,
5.8700,    10.0,
5.8800,     4.0,
5.8900,    10.0,
5.9000,     9.0,
5.9100,     9.0,
5.9200,     6.0,
5.9300,     4.0,
5.9400,     4.0,
5.9500,     8.0,
5.9600,    13.0,
5.9700,     5.0,
5.9800,     5.0,
5.9900,     8.0,
6.0000,     5.0,
6.0100,     4.0,
6.0200,     4.0,
6.0300,    10.0,
6.0400,     3.0,
6.0500,     8.0,
6.0600,     7.0,
6.0700,     3.0,
6.0800,     7.0,
6.0900,     6.0,
6.1000,     6.0,
6.1100,     4.0,
6.1200,    10.0,
6.1300,     3.0,
6.1400,     5.0,
6.1500,     3.0,
6.1600,     7.0,
6.1700,     1.0,
6.1800,     4.0,
6.1900,     7.0,
6.2000,     5.0,
6.2100,     1.0,
6.2200,     4.0,
6.2300,     7.0,
6.2400,     0.0,
6.2500,     4.0,
6.2600,     5.0,
6.2700,     8.0,
6.2800,     2.0,
6.2900,     5.0,
6.3000,     5.0,
6.3100,     2.0,
6.3200,     1.0,
6.3300,     2.0,
6.3400,     6.0,
6.3500,     3.0,
6.3600,     3.0,
6.3700,     3.0,
6.3800,     3.0,
6.3900,     2.0,
6.4000,     3.0,
6.4100,     3.0,
6.4200,     3.0,
6.4300,     3.0,
6.4400,     4.0,
6.4500,     3.0,
6.4600,     2.0,
6.4700,     6.0,
6.4800,     0.0,
6.4900,     1.0,
6.5000,     3.0,
6.5100,     3.0,
6.5200,     2.0,
6.5300,     0.0,
6.5400,     6.0,
6.5500,     3.0,
6.5600,     0.0,
6.5700,     2.0,
6.5800,     3.0,
6.5900,     4.0,
6.6000,     2.0,
6.6100,     2.0,
6.6200,     0.0,
6.6300,     2.0,
6.6400,     1.0,
6.6500,     2.0,
6.6600,     1.0,
6.6700,     3.0,
6.6800,     1.0,
6.6900,     1.0,
6.7000,     1.0,
6.7100,     2.0,
6.7200,     1.0,
6.7300,     2.0,
6.7400,     0.0,
6.7500,     1.0,
6.7600,     0.0,
6.7700,     1.0,
6.7800,     0.0,
6.7900,     1.0,
6.8000,     0.0,
6.8100,     0.0,
6.8200,     0.0,
6.8300,     2.0,
6.8400,     0.0,
6.8500,     1.0,
6.8600,     0.0,
6.8700,     0.0,
6.8800,     0.0,
6.8900,     5.0,
6.9000,     0.0,
6.9100,     0.0,
6.9200,     0.0,
6.9300,     1.0,
6.9400,     2.0,
6.9500,     0.0,
6.9600,     1.0,
6.9700,     1.0,
6.9800,     0.0,
6.9900,     0.0,
7.0000,     0.0,
7.0100,     0.0,
7.0200,     0.0,
7.0300,     0.0,
7.0400,     0.0,
7.0500,     0.0,
7.0600,     0.0,
7.0700,     0.0,
7.0800,     1.0,
7.0900,     0.0,
7.1000,     0.0,
7.1100,     0.0,
7.1200,     0.0,
7.1300,     0.0,
7.1400,     0.0,
7.1500,     0.0,
7.1600,     0.0,
7.1700,     0.0,
7.1800,     0.0,
7.1900,     0.0,
7.2000,     0.0,
7.2100,     0.0,
7.2200,     0.0,
7.2300,     0.0,
7.2400,     0.0,
7.2500,     0.0,
7.2600,     0.0,
7.2700,     0.0,
7.2800,     0.0,
7.2900,     0.0,
7.3000,     0.0,
7.3100,     0.0,
7.3200,     0.0,
7.3300,     0.0,
7.3400,     0.0,
7.3500,     0.0,
7.3600,     0.0,
7.3700,     0.0,
7.3800,     0.0,
7.3900,     0.0,
7.4000,     0.0,
7.4100,     0.0,
7.4200,     0.0,
7.4300,     0.0,
7.4400,     0.0,
7.4500,     0.0,
7.4600,     0.0,
7.4700,     0.0,
7.4800,     0.0,
7.4900,     0.0,
7.5000,     0.0,
7.5100,     0.0,
7.5200,     0.0,
7.5300,     0.0,
7.5400,     0.0,
7.5500,     0.0,
7.5600,     0.0,
7.5700,     0.0,
7.5800,     0.0,
7.5900,     0.0,
7.6000,     0.0,
7.6100,     0.0,
7.6200,     0.0,
7.6300,     0.0,
7.6400,     0.0,
7.6500,     0.0,
7.6600,     0.0,
7.6700,     0.0,
7.6800,     0.0,
7.6900,     0.0,
7.7000,     0.0,
7.7100,     0.0,
7.7200,     0.0,
7.7300,     0.0,
7.7400,     0.0,
7.7500,     0.0,
7.7600,     0.0,
7.7700,     0.0,
7.7800,     0.0,
7.7900,     0.0,
7.8000,     0.0,
7.8100,     0.0,
7.8200,     0.0,
7.8300,     0.0,
7.8400,     0.0,
7.8500,     0.0,
7.8600,     0.0,
7.8700,     0.0,
7.8800,     0.0,
7.8900,     0.0,
7.9000,     0.0,
7.9100,     0.0,
7.9200,     0.0,
7.9300,     0.0,
7.9400,     0.0,
7.9500,     0.0,
7.9600,     0.0,
7.9700,     0.0,
7.9800,     0.0,
7.9900,     0.0,
8.0000,     0.0,
8.0100,     0.0,
8.0200,     0.0,
8.0300,     0.0,
8.0400,     0.0,
8.0500,     0.0,
8.0600,     0.0,
8.0700,     0.0,
8.0800,     0.0,
8.0900,     0.0,
8.1000,     0.0,
8.1100,     0.0,
8.1200,     0.0,
8.1300,     0.0,
8.1400,     0.0,
8.1500,     0.0,
8.1600,     0.0,
8.1700,     0.0,
8.1800,     0.0,
8.1900,     0.0,
8.2000,     0.0,
8.2100,     0.0,
8.2200,     0.0,
8.2300,     0.0,
8.2400,     0.0,
8.2500,     0.0,
8.2600,     0.0,
8.2700,     0.0,
8.2800,     0.0,
8.2900,     0.0,
8.3000,     0.0,
8.3100,     0.0,
8.3200,     0.0,
8.3300,     0.0,
8.3400,     0.0,
8.3500,     0.0,
8.3600,     0.0,
8.3700,     0.0,
8.3800,     0.0,
8.3900,     0.0,
8.4000,     0.0,
8.4100,     0.0,
8.4200,     0.0,
8.4300,     0.0,
8.4400,     0.0,
8.4500,     0.0,
8.4600,     0.0,
8.4700,     0.0,
8.4800,     0.0,
8.4900,     0.0,
8.5000,     0.0,
8.5100,     0.0,
8.5200,     0.0,
8.5300,     0.0,
8.5400,     0.0,
8.5500,     0.0,
8.5600,     0.0,
8.5700,     0.0,
8.5800,     0.0,
8.5900,     0.0,
8.6000,     0.0,
8.6100,     0.0,
8.6200,     0.0,
8.6300,     0.0,
8.6400,     0.0,
8.6500,     0.0,
8.6600,     0.0,
8.6700,     0.0,
8.6800,     0.0,
8.6900,     0.0,
8.7000,     0.0,
8.7100,     0.0,
8.7200,     0.0,
8.7300,     0.0,
8.7400,     0.0,
8.7500,     0.0,
8.7600,     0.0,
8.7700,     0.0,
8.7800,     0.0,
8.7900,     0.0,
8.8000,     0.0,
8.8100,     0.0,
8.8200,     0.0,
8.8300,     0.0,
8.8400,     0.0,
8.8500,     0.0,
8.8600,     0.0,
8.8700,     0.0,
8.8800,     0.0,
8.8900,     0.0,
8.9000,     0.0,
8.9100,     0.0,
8.9200,     0.0,
8.9300,     0.0,
8.9400,     0.0,
8.9500,     0.0,
8.9600,     0.0,
8.9700,     0.0,
8.9800,     0.0,
8.9900,     0.0,
9.0000,     0.0,
9.0100,     0.0,
9.0200,     0.0,
9.0300,     0.0,
9.0400,     0.0,
9.0500,     0.0,
9.0600,     0.0,
9.0700,     0.0,
9.0800,     0.0,
9.0900,     0.0,
9.1000,     0.0,
9.1100,     0.0,
9.1200,     0.0,
9.1300,     0.0,
9.1400,     0.0,
9.1500,     0.0,
9.1600,     0.0,
9.1700,     0.0,
9.1800,     0.0,
9.1900,     0.0,
9.2000,     0.0,
9.2100,     0.0,
9.2200,     0.0,
9.2300,     0.0,
9.2400,     0.0,
9.2500,     0.0,
9.2600,     0.0,
9.2700,     0.0,
9.2800,     0.0,
9.2900,     0.0,
9.3000,     0.0,
9.3100,     0.0,
9.3200,     0.0,
9.3300,     0.0,
9.3400,     0.0,
9.3500,     0.0,
9.3600,     0.0,
9.3700,     0.0,
9.3800,     0.0,
9.3900,     0.0,
9.4000,     0.0,
9.4100,     0.0,
9.4200,     0.0,
9.4300,     0.0,
9.4400,     0.0,
9.4500,     0.0,
9.4600,     0.0,
9.4700,     0.0,
9.4800,     0.0,
9.4900,     0.0,
9.5000,     0.0,
9.5100,     0.0,
9.5200,     0.0,
9.5300,     0.0,
9.5400,     0.0,
9.5500,     0.0,
9.5600,     0.0,
9.5700,     0.0,
9.5800,     0.0,
9.5900,     0.0,
9.6000,     0.0,
9.6100,     0.0,
9.6200,     0.0,
9.6300,     0.0,
9.6400,     0.0,
9.6500,     0.0,
9.6600,     0.0,
9.6700,     0.0,
9.6800,     0.0,
9.6900,     0.0,
9.7000,     0.0,
9.7100,     0.0,
9.7200,     0.0,
9.7300,     0.0,
9.7400,     0.0,
9.7500,     0.0,
9.7600,     0.0,
9.7700,     0.0,
9.7800,     0.0,
9.7900,     0.0,
9.8000,     0.0,
9.8100,     0.0,
9.8200,     0.0,
9.8300,     0.0,
9.8400,     0.0,
9.8500,     0.0,
9.8600,     0.0,
9.8700,     0.0,
9.8800,     0.0,
9.8900,     0.0,
9.9000,     0.0,
9.9100,     0.0,
9.9200,     0.0,
9.9300,     0.0,
9.9400,     0.0,
9.9500,     0.0,
9.9600,     0.0,
9.9700,     0.0,
9.9800,     0.0,
9.9900,     0.0,
10.0000,     0.0,
10.0100,     0.0,
10.0200,     0.0,
10.0300,     0.0,
10.0400,     0.0,
10.0500,     0.0,
10.0600,     0.0,
10.0700,     0.0,
10.0800,     0.0,
10.0900,     0.0,
10.1000,     0.0,
10.1100,     0.0,
10.1200,     0.0,
10.1300,     0.0,
10.1400,     0.0,
10.1500,     0.0,
10.1600,     0.0,
10.1700,     0.0,
10.1800,     0.0,
10.1900,     0.0,
10.2000,     0.0,
10.2100,     0.0,
10.2200,     0.0,
10.2300,     0.0,
#ENDOFDATA   :